<Bundle xmlns="http://hl7.org/fhir">
    <identifier>
        <system value="https://tools.ietf.org/html/rfc4122"></system>
        <value value="b39f5aa8-56cb-43f1-a0c8-cbc3ceb3ebc6"></value>
    </identifier>
    <type value="collection"></type>
    <entry>
        <fullUrl value="urn:uuid:b23521db-c947-4f31-bbd5-f04d01d299e5"></fullUrl>
        <resource>
            <DocumentReference xmlns="http://hl7.org/fhir">
                <id value="b23521db-c947-4f31-bbd5-f04d01d299e5"></id>
                <status value="current"></status>
                <type>
                    <coding>
                        <system value="http://snomed.info/sct"></system>
                        <code value="820291000000107"></code>
                        <display value="Infectious disease notification"></display>
                    </coding>
                </type>
                <subject>
                    <reference value="urn:uuid:9090051e-efdc-4315-9688-4b0f1a28b320"></reference>
                </subject>
                <created value="2018-04-20T15:58:00+01:00"></created>
                <author>
                    <reference value="urn:uuid:de0bb5fb-a903-4250-9c10-c86c14f00fab"></reference>
                </author>
                <custodian>
                    <reference value="urn:uuid:47ddbb89-d547-4d68-bbfd-3689517e57cf"></reference>
                </custodian>
                <content>
                    <attachment>
                        <contentType value="image/jpeg"></contentType>
                        <url value="25cd444a-c738-4d22-936b-7317bd306a99"></url>
                    </attachment>
                </content>
                <context>
                    <facilityType>
                        <coding>
                            <system value="http://snomed.info/sct"></system>
                            <code value="700241009"></code>
                            <display value="Dermatology service"></display>
                        </coding>
                    </facilityType>
                    <practiceSetting>
                        <coding>
                            <system value="http://snomed.info/sct"></system>
                            <code value="394582007"></code>
                            <display value="Dermatology"></display>
                        </coding>
                    </practiceSetting>
                </context>
            </DocumentReference>
        </resource>
    </entry>
    <entry>
        <fullUrl value="urn:uuid:47ddbb89-d547-4d68-bbfd-3689517e57cf"></fullUrl>
        <resource>
            <Organization xmlns="http://hl7.org/fhir">
                <id value="47ddbb89-d547-4d68-bbfd-3689517e57cf"></id>
                <meta>
                    <lastUpdated value="2017-11-17T09:59:37.587+00:00"></lastUpdated>
                    <profile value="https://fhir.hl7.org.uk/STU3/StructureDefinition/CareConnect-Organization-1"></profile>
                </meta>
                <identifier>
                    <system value="https://fhir.nhs.uk/Id/ods-organization-code"></system>
                    <value value="RR8"></value>
                </identifier>
                <active value="true"></active>
                <type>
                    <coding>
                        <system value="http://snomed.info/sct"></system>
                        <code value="930621000000104"></code>
                        <display value="National Health Service Trust (qualifier value)"></display>
                    </coding>
                </type>
                <name value="Leeds Teaching Hospitals Nhs Trust"></name>
                <address>
                    <use value="work"></use>
                    <line value="St. James's University Hospital"></line>
                    <line value="Beckett Street"></line>
                    <city value="Leeds"></city>
                    <district value="West Yorkshire"></district>
                    <postalCode value="LS9 7TF"></postalCode>
                </address>
            </Organization>
        </resource>
    </entry>
    <entry>
        <fullUrl value="urn:uuid:de0bb5fb-a903-4250-9c10-c86c14f00fab"></fullUrl>
        <resource>
            <Practitioner xmlns="http://hl7.org/fhir">
                <id value="de0bb5fb-a903-4250-9c10-c86c14f00fab"></id>
                <meta>
                    <lastUpdated value="2017-11-17T10:29:46.792+00:00"></lastUpdated>
                    <profile value="https://fhir.hl7.org.uk/STU3/StructureDefinition/CareConnect-Practitioner-1"></profile>
                </meta>
                <identifier>
                    <system value="https://fhir.nhs.uk/Id/sds-user-id"></system>
                    <value value="C2381390"></value>
                </identifier>
                <active value="true"></active>
                <name>
                    <family value="Dearden"></family>
                    <given value="N"></given>
                    <prefix value="Dr"></prefix>
                </name>
            </Practitioner>
        </resource>
    </entry>
    <entry>
        <fullUrl value="urn:uuid:25cd444a-c738-4d22-936b-7317bd306a99"></fullUrl>
        <resource>
            <Binary xmlns="http://hl7.org/fhir">
                <id value="25cd444a-c738-4d22-936b-7317bd306a99"></id>
                <contentType value="image/jpeg"></contentType>
                <content value=""></content>
            </Binary>
        </resource>
    </entry>
    <entry>
        <fullUrl value="urn:uuid:9090051e-efdc-4315-9688-4b0f1a28b320"></fullUrl>
        <resource>
            <Patient xmlns="http://hl7.org/fhir">
                <id value="9090051e-efdc-4315-9688-4b0f1a28b320"></id>
                <meta>
                    <profile value="https://fhir.hl7.org.uk/STU3/StructureDefinition/CareConnect-Patient-1"></profile>
                </meta>
                <extension url="https://fhir.hl7.org.uk/STU3/StructureDefinition/Extension-CareConnect-EthnicCategory-1">
                    <valueCodeableConcept>
                        <coding>
                            <system value="https://fhir.hl7.org.uk/STU3/CodeSystem/CareConnect-EthnicCategory-1"></system>
                            <code value="A"></code>
                            <display value="British, Mixed British"></display>
                        </coding>
                    </valueCodeableConcept>
                </extension>
                <identifier>
                    <system value="https://fhir.leedsth.nhs.uk/Id/pas-number"></system>
                    <value value="LOCAL1098"></value>
                </identifier>
                <identifier>
                    <extension url="https://fhir.hl7.org.uk/STU3/StructureDefinition/Extension-CareConnect-NHSNumberVerificationStatus-1">
                        <valueCodeableConcept>
                            <coding>
                                <system value="https://fhir.hl7.org.uk/STU3/CodeSystem/CareConnect-NHSNumberVerificationStatus-1"></system>
                                <code value="06"></code>
                                <display value="Trace in progress"></display>
                            </coding>
                        </valueCodeableConcept>
                    </extension>
                    <system value="https://fhir.nhs.uk/Id/nhs-number"></system>
                    <value value="9694899079"></value>
                </identifier>
                <identifier>
                    <system value="https://fhir.leedsth.nhs.uk/Id/PPMIdentifier"></system>
                    <value value="1098"></value>
                </identifier>
                <active value="true"></active>
                <name>
                    <use value="usual"></use>
                    <family value="Alvarado"></family>
                    <given value="Dwayne"></given>
                    <prefix value="Mr"></prefix>
                </name>
                <telecom>
                    <system value="phone"></system>
                    <value value="(01535) 121667"></value>
                    <use value="home"></use>
                </telecom>
                <telecom>
                    <system value="email"></system>
                    <value value="Dwayne-Alvarado@take.org"></value>
                    <use value="home"></use>
                </telecom>
                <gender value="male"></gender>
                <birthDate value="1961-01-27"></birthDate>
                <address>
                    <use value="home"></use>
                    <type value="both"></type>
                    <line value="8 Westville Avenue"></line>
                    <line value="Ilkley"></line>
                    <city value="Ilkley"></city>
                    <district value="West Yorkshire"></district>
                    <postalCode value="LS29 9AH"></postalCode>
                </address>
                <maritalStatus>
                    <coding>
                        <system value="http://hl7.org/fhir/v3/MaritalStatus"></system>
                        <code value="M"></code>
                        <display value="Married"></display>
                    </coding>
                </maritalStatus>
                <generalPractitioner>
                    <reference value="urn:uuid:998ba024-9969-44e5-8681-d78c1037f872"></reference>
                    <display value="Dr PV Shevlin"></display>
                </generalPractitioner>
                <managingOrganization>
                    <reference value="urn:uuid:e45b6f26-22e1-47a9-8820-f1ef63da50be"></reference>
                </managingOrganization>
            </Patient>
        </resource>
    </entry>
    <entry>
        <fullUrl value="urn:uuid:e45b6f26-22e1-47a9-8820-f1ef63da50be"></fullUrl>
        <resource>
            <Organization xmlns="http://hl7.org/fhir">
                <id value="e45b6f26-22e1-47a9-8820-f1ef63da50be"></id>
                <meta>
                    <lastUpdated value="2017-11-17T09:59:53.278+00:00"></lastUpdated>
                    <profile value="https://fhir.hl7.org.uk/STU3/StructureDefinition/CareConnect-Organization-1"></profile>
                </meta>
                <identifier>
                    <system value="https://fhir.nhs.uk/Id/ods-organization-code"></system>
                    <value value="B86001"></value>
                </identifier>
                <active value="true"></active>
                <type>
                    <coding>
                        <system value="http://snomed.info/sct"></system>
                        <code value="394745000"></code>
                        <display value="General practice (organisation) (qualifier value)"></display>
                    </coding>
                </type>
                <name value="Dr N Saddiq's Practice"></name>
                <telecom>
                    <system value="phone"></system>
                    <value value="0113 2954060"></value>
                    <use value="work"></use>
                </telecom>
                <address>
                    <use value="work"></use>
                    <line value="Morley Health Centre"></line>
                    <line value="Corporation Street"></line>
                    <line value="Morley"></line>
                    <city value="Leeds"></city>
                    <postalCode value="LS27 9NB"></postalCode>
                </address>
                <partOf>
                    <reference value="Organization/200289"></reference>
                    <display value="Nhs Leeds West Ccg"></display>
                </partOf>
            </Organization>
        </resource>
    </entry>
    <entry>
        <fullUrl value="urn:uuid:998ba024-9969-44e5-8681-d78c1037f872"></fullUrl>
        <resource>
            <Practitioner xmlns="http://hl7.org/fhir">
                <id value="998ba024-9969-44e5-8681-d78c1037f872"></id>
                <meta>
                    <lastUpdated value="2017-11-17T10:12:59.418+00:00"></lastUpdated>
                    <profile value="https://fhir.hl7.org.uk/STU3/StructureDefinition/CareConnect-Practitioner-1"></profile>
                </meta>
                <identifier>
                    <system value="https://fhir.nhs.uk/Id/sds-user-id"></system>
                    <value value="G8904906"></value>
                </identifier>
                <active value="true"></active>
                <name>
                    <family value="Shevlin"></family>
                    <given value="PV"></given>
                    <prefix value="Dr"></prefix>
                </name>
                <address>
                    <use value="work"></use>
                    <line value="Hawthorn Surgery"></line>
                    <line value="Wortley Beck Hc, Ring Rd"></line>
                    <line value="Lower Wortley"></line>
                    <city value="Leeds"></city>
                    <postalCode value="LS12 5SG"></postalCode>
                </address>
            </Practitioner>
        </resource>
    </entry>
</Bundle>